Folder: naibun/data/温度20℃

File: 210914A_soc100_t20.csv
HIOKI E.E. CORPORATION,IM3590,Ver. 1.07,Serial No. 150331077,,
,,,,,
DATE,2021/9/14,,,,
TIME,17:47:10,,,,
,,,,,
SOURCE,FREQ,,,,
TRIG,SEQ,,,,
DRAW,REAL,,,,
TRIG DELAY,0,s,,,
SEGMENT,OFF,,,,
CC,5,mA,,,
BATTERY,ON,,,,
RANGE,AUTO,,,,
SPEED,---,,,,
AVG,2,,,,
POINT DELAY,0,s,,,
,,,,,
BATT,4.107,V,,,
No.,FREQUENCY[Hz],RS[ohm],X[ohm],,
1,5000 ,0.02160 ,0.00913 ,2.16E-02,-9.13E-03
2,3410 ,0.02120 ,0.00576 ,2.12E-02,-5.76E-03
3,2320 ,0.02120 ,0.00314 ,2.12E-02,-3.14E-03
4,1580 ,0.02140 ,0.00119 ,2.14E-02,-1.19E-03
5,1080 ,0.02180 ,-0.00028 ,2.18E-02,2.80E-04
6,734 ,0.02250 ,-0.00140 ,2.25E-02,1.40E-03
7,500 ,0.02330 ,-0.00240 ,2.33E-02,2.40E-03
8,341 ,0.02420 ,-0.00312 ,2.42E-02,3.12E-03
9,232 ,0.02540 ,-0.00373 ,2.54E-02,3.73E-03
10,158 ,0.02640 ,-0.00413 ,2.64E-02,4.13E-03
11,108 ,0.02730 ,-0.00454 ,2.73E-02,4.54E-03
12,73.40000 ,0.02880 ,-0.00478 ,2.88E-02,4.78E-03
13,50.00000 ,0.02990 ,-0.00490 ,2.99E-02,4.90E-03
14,34.10000 ,0.03140 ,-0.00525 ,3.14E-02,5.25E-03
15,23.20000 ,0.03220 ,-0.00553 ,3.22E-02,5.53E-03
16,15.80000 ,0.03340 ,-0.00568 ,3.34E-02,5.68E-03
17,10.80000 ,0.03440 ,-0.00651 ,3.44E-02,6.51E-03
18,7.34000 ,0.03580 ,-0.00737 ,3.58E-02,7.37E-03
19,5.00000 ,0.03750 ,-0.00851 ,3.75E-02,8.51E-03
20,3.41000 ,0.03960 ,-0.01010 ,3.96E-02,1.01E-02
21,2.32000 ,0.04300 ,-0.01180 ,4.30E-02,1.18E-02
22,1.58000 ,0.04710 ,-0.01280 ,4.71E-02,1.28E-02
23,1.08000 ,0.05140 ,-0.01290 ,5.14E-02,1.29E-02
24,0.73400 ,0.05550 ,-0.01170 ,5.55E-02,1.17E-02
25,0.50000 ,0.05860 ,-0.00983 ,5.86E-02,9.83E-03
26,0.34100 ,0.06010 ,-0.00829 ,6.01E-02,8.29E-03
27,0.23200 ,0.06130 ,-0.00730 ,6.13E-02,7.30E-03
28,0.15800 ,0.06220 ,-0.00649 ,6.22E-02,6.49E-03
29,0.10800 ,0.06300 ,-0.00569 ,6.30E-02,5.69E-03
30,0.07300 ,0.06460 ,-0.00579 ,6.46E-02,5.79E-03
31,0.05000 ,0.06580 ,-0.00629 ,6.58E-02,6.29E-03

File: 210921B_soc100_t20.csv
HIOKI E.E. CORPORATION,IM3590,Ver. 1.07,Serial No. 150331077
,,,
DATE,2021/9/21,,
TIME,16:10:39,,
,,,
SOURCE,FREQ,,
TRIG,SEQ,,
DRAW,REAL,,
TRIG DELAY,0,s,
SEGMENT,OFF,,
CC,5,mA,
BATTERY,ON,,
RANGE,AUTO,,
SPEED,---,,
AVG,2,,
POINT DELAY,0,s,
,,,
BATT,4.115,V,
No.,FREQUENCY[Hz],RS[ohm],X[ohm]
1,5.00000E+03,2.12200E-02,8.48000E-03
2,3.40650E+03,2.08700E-02,5.25000E-03
3,2.32080E+03,2.08200E-02,2.69000E-03
4,1.58110E+03,2.11100E-02,9.00000E-04
5,1.07720E+03,2.16600E-02,-5.70000E-04
6,7.33900E+02,2.25100E-02,-1.73000E-03
7,5.00000E+02,2.31900E-02,-2.68000E-03
8,3.40650E+02,2.41700E-02,-3.38000E-03
9,2.32080E+02,2.53100E-02,-4.03000E-03
10,1.58110E+02,2.67900E-02,-4.54000E-03
11,1.07720E+02,2.75100E-02,-4.53000E-03
12,7.33900E+01,2.90400E-02,-4.93000E-03
13,5.00000E+01,3.01600E-02,-5.54000E-03
14,3.40650E+01,3.16600E-02,-5.30000E-03
15,2.32080E+01,3.26400E-02,-5.40000E-03
16,1.58110E+01,3.38400E-02,-6.05000E-03
17,1.07720E+01,3.49700E-02,-6.68000E-03
18,7.33900E+00,3.60800E-02,-7.64000E-03
19,5.00000E+00,3.76100E-02,-8.72000E-03
20,3.40600E+00,3.98800E-02,-1.07400E-02
21,2.32100E+00,4.33300E-02,-1.28300E-02
22,1.58100E+00,4.75700E-02,-1.35400E-02
23,1.07700E+00,5.23800E-02,-1.38100E-02
24,7.34000E-01,5.69100E-02,-1.25900E-02
25,5.00000E-01,6.00800E-02,-1.14200E-02
26,3.41000E-01,6.28600E-02,-9.25000E-03
27,2.32000E-01,6.39200E-02,-8.00000E-03
28,1.58000E-01,6.52200E-02,-7.27000E-03
29,1.08000E-01,6.58500E-02,-7.19000E-03
30,7.30000E-02,6.64000E-02,-7.62000E-03
31,5.00000E-02,6.78200E-02,-8.64000E-03

File: 210924C_soc100_t20.csv
HIOKI E.E. CORPORATION,IM3590,Ver. 1.07,Serial No. 150331077
,,,
DATE,2021/9/24,,
TIME,14:53:22,,
,,,
SOURCE,FREQ,,
TRIG,SEQ,,
DRAW,REAL,,
TRIG DELAY,0,s,
SEGMENT,OFF,,
CC,5,mA,
BATTERY,ON,,
RANGE,AUTO,,
SPEED,---,,
AVG,2,,
POINT DELAY,0,s,
,,,
BATT,4.101,V,
No.,FREQUENCY[Hz],RS[ohm],X[ohm]
1,5000 ,0.02138 ,0.00851
2,3406.5 ,0.02097 ,0.00531
3,2320.8 ,0.02091 ,0.00293
4,1581.1 ,0.02121 ,0.00094
5,1077.2 ,0.02166 ,-0.00046
6,733.9 ,0.02236 ,-0.00165
7,500 ,0.02322 ,-0.00258
8,340.65 ,0.02413 ,-0.00328
9,232.08 ,0.02528 ,-0.00379
10,158.11 ,0.02626 ,-0.00430
11,107.72 ,0.02760 ,-0.00486
12,73.39000 ,0.02893 ,-0.00497
13,50.00000 ,0.02991 ,-0.00503
14,34.06500 ,0.03109 ,-0.00546
15,23.20800 ,0.03256 ,-0.00574
16,15.81100 ,0.03345 ,-0.00615
17,10.77200 ,0.03464 ,-0.00670
18,7.33900 ,0.03588 ,-0.00794
19,5.00000 ,0.03706 ,-0.00948
20,3.40600 ,0.03919 ,-0.01168
21,2.32100 ,0.04207 ,-0.01363
22,1.58100 ,0.04692 ,-0.01571
23,1.07700 ,0.05245 ,-0.01679
24,0.73400 ,0.05839 ,-0.01572
25,0.50000 ,0.06304 ,-0.01431
26,0.34100 ,0.06660 ,-0.01209
27,0.23200 ,0.06823 ,-0.00964
28,0.15800 ,0.06997 ,-0.00793
29,0.10800 ,0.07081 ,-0.00664
30,0.07300 ,0.07167 ,-0.00777
31,0.05000 ,0.07290 ,-0.00748

File: 211108D_soc100_t20.csv
HIOKI E.E. CORPORATION,IM3590,Ver. 1.07,Serial No. 150331077
,,,
DATE,2021/11/8,,
TIME,17:08:43,,
,,,
SOURCE,FREQ,,
TRIG,SEQ,,
DRAW,REAL,,
TRIG DELAY,0,s,
SEGMENT,OFF,,
CC,5,mA,
BATTERY,ON,,
RANGE,AUTO,,
SPEED,---,,
AVG,2,,
POINT DELAY,0,s,
,,,
BATT,4.069,V,
No.,FREQUENCY[Hz],RS[ohm],X[ohm]
1,5000 ,0.02128 ,0.00692
2,3406.5 ,0.02091 ,0.00422
3,2320.8 ,0.02084 ,0.00210
4,1581.1 ,0.02110 ,0.00048
5,1077.2 ,0.02155 ,-0.00079
6,733.9 ,0.02227 ,-0.00177
7,500 ,0.02308 ,-0.00258
8,340.65 ,0.02396 ,-0.00325
9,232.08 ,0.02502 ,-0.00410
10,158.11 ,0.02621 ,-0.00420
11,107.72 ,0.02720 ,-0.00469
12,73.39000 ,0.02886 ,-0.00484
13,50.00000 ,0.02997 ,-0.00516
14,34.06500 ,0.03100 ,-0.00526
15,23.20800 ,0.03218 ,-0.00555
16,15.81100 ,0.03355 ,-0.00598
17,10.77200 ,0.03467 ,-0.00649
18,7.33900 ,0.03578 ,-0.00760
19,5.00000 ,0.03738 ,-0.00870
20,3.40600 ,0.03958 ,-0.01009
21,2.32100 ,0.04283 ,-0.01187
22,1.58100 ,0.04688 ,-0.01242
23,1.07700 ,0.05095 ,-0.01194
24,0.73400 ,0.05453 ,-0.01078
25,0.50000 ,0.05706 ,-0.00863
26,0.34100 ,0.05899 ,-0.00747
27,0.23200 ,0.05991 ,-0.00555
28,0.15800 ,0.06127 ,-0.00584
29,0.10800 ,0.06139 ,-0.00536
30,0.07300 ,0.06184 ,-0.00534
31,0.05000 ,0.06254 ,-0.00581