Folder: naibun/data/温度10℃

File: 210916A_soc100_t10.csv
HIOKI E.E. CORPORATION,IM3590,Ver. 1.07,Serial No. 150331077,,
,,,,,
DATE,2021/9/16,,,,
TIME,15:41:07,,,,
,,,,,
SOURCE,FREQ,,,,
TRIG,SEQ,,,,
DRAW,REAL,,,,
TRIG DELAY,0,s,,,
SEGMENT,OFF,,,,
CC,5,mA,,,
BATTERY,ON,,,,
RANGE,AUTO,,,,
SPEED,---,,,,
AVG,2,,,,
POINT DELAY,0,s,,,
,,,,,
BATT,4.106,V,,,
No.,FREQUENCY[Hz],RS[ohm],X[ohm],,
1,5.00000E+03,2.22000E-02,9.19000E-03,2.22E-02,-9.19E-03
2,3.41000E+03,2.18000E-02,5.60000E-03,2.18E-02,-5.60E-03
3,2.32000E+03,2.19000E-02,2.81000E-03,2.19E-02,-2.81E-03
4,1.58000E+03,2.22000E-02,6.50000E-04,2.22E-02,-6.50E-04
5,1.08000E+03,2.28000E-02,-1.05000E-03,2.28E-02,1.05E-03
6,7.34000E+02,2.36000E-02,-2.42000E-03,2.36E-02,2.42E-03
7,5.00000E+02,2.46000E-02,-3.66000E-03,2.46E-02,3.66E-03
8,3.41000E+02,2.58000E-02,-4.70000E-03,2.58E-02,4.70E-03
9,2.32000E+02,2.72000E-02,-5.59000E-03,2.72E-02,5.59E-03
10,1.58000E+02,2.90000E-02,-6.69000E-03,2.90E-02,6.69E-03
11,1.08000E+02,3.08000E-02,-7.23000E-03,3.08E-02,7.23E-03
12,7.34000E+01,3.27000E-02,-8.03000E-03,3.27E-02,8.03E-03
13,5.00000E+01,3.49000E-02,-8.19000E-03,3.49E-02,8.19E-03
14,3.41000E+01,3.69000E-02,-8.79000E-03,3.69E-02,8.79E-03
15,2.32000E+01,3.91000E-02,-9.40000E-03,3.91E-02,9.40E-03
16,1.58000E+01,4.09000E-02,-9.98000E-03,4.09E-02,9.98E-03
17,1.08000E+01,4.31000E-02,-1.06000E-02,4.31E-02,1.06E-02
18,7.34000E+00,4.50000E-02,-1.19000E-02,4.50E-02,1.19E-02
19,5.00000E+00,4.70000E-02,-1.38000E-02,4.70E-02,1.38E-02
20,3.41000E+00,4.95000E-02,-1.66000E-02,4.95E-02,1.66E-02
21,2.32000E+00,5.26000E-02,-2.04000E-02,5.26E-02,2.04E-02
22,1.58000E+00,5.72000E-02,-2.49000E-02,5.72E-02,2.49E-02
23,1.08000E+00,6.45000E-02,-3.04000E-02,6.45E-02,3.04E-02
24,7.34000E-01,7.46000E-02,-3.52000E-02,7.46E-02,3.52E-02
25,5.00000E-01,8.77000E-02,-3.76000E-02,8.77E-02,3.76E-02
26,3.41000E-01,1.01000E-01,-3.59000E-02,1.01E-01,3.59E-02
27,2.32000E-01,1.12000E-01,-3.17000E-02,1.12E-01,3.17E-02
28,1.58000E-01,1.20000E-01,-2.72000E-02,1.20E-01,2.72E-02
29,1.08000E-01,1.25000E-01,-2.22000E-02,1.25E-01,2.22E-02
30,7.30000E-02,1.28000E-01,-1.89000E-02,1.28E-01,1.89E-02
31,5.00000E-02,1.32000E-01,-1.50000E-02,1.32E-01,1.50E-02

File: 210922B_soc100_t10.csv
HIOKI E.E. CORPORATION,IM3590,Ver. 1.07,Serial No. 150331077
,,,
DATE,2021/9/22,,
TIME,12:28:19,,
,,,
SOURCE,FREQ,,
TRIG,SEQ,,
DRAW,REAL,,
TRIG DELAY,0,s,
SEGMENT,OFF,,
CC,5,mA,
BATTERY,ON,,
RANGE,AUTO,,
SPEED,---,,
AVG,2,,
POINT DELAY,0,s,
,,,
BATT,4.107,V,
No.,FREQUENCY[Hz],RS[ohm],X[ohm]
1,5.00000E+03,2.16700E-02,8.00000E-03
2,3.40650E+03,2.13600E-02,4.74000E-03
3,2.32080E+03,2.14800E-02,2.18000E-03
4,1.58110E+03,2.18200E-02,7.00000E-05
5,1.07720E+03,2.25200E-02,-1.52000E-03
6,7.33900E+02,2.34400E-02,-2.83000E-03
7,5.00000E+02,2.44900E-02,-4.04000E-03
8,3.40650E+02,2.57400E-02,-5.15000E-03
9,2.32080E+02,2.71300E-02,-6.38000E-03
10,1.58110E+02,2.89900E-02,-7.18000E-03
11,1.07720E+02,3.10000E-02,-7.94000E-03
12,7.33900E+01,3.32600E-02,-8.55000E-03
13,5.00000E+01,3.54900E-02,-9.09000E-03
14,3.40650E+01,3.77500E-02,-9.77000E-03
15,2.32080E+01,4.00800E-02,-1.01400E-02
16,1.58110E+01,4.23700E-02,-1.06400E-02
17,1.07720E+01,4.43600E-02,-1.12800E-02
18,7.33900E+00,4.65600E-02,-1.21800E-02
19,5.00000E+00,4.88900E-02,-1.41700E-02
20,3.40600E+00,5.15200E-02,-1.68600E-02
21,2.32100E+00,5.47200E-02,-1.98000E-02
22,1.58100E+00,5.99900E-02,-2.44000E-02
23,1.07700E+00,6.74700E-02,-2.96200E-02
24,7.34000E-01,7.72600E-02,-3.34300E-02
25,5.00000E-01,8.91400E-02,-3.47100E-02
26,3.41000E-01,1.01180E-01,-3.31300E-02
27,2.32000E-01,1.10420E-01,-2.88800E-02
28,1.58000E-01,1.18220E-01,-2.42300E-02
29,1.08000E-01,1.22070E-01,-1.98900E-02
30,7.30000E-02,1.25830E-01,-1.71600E-02
31,5.00000E-02,1.28200E-01,-1.57200E-02

File: 210924C_soc100_t10.csv
HIOKI E.E. CORPORATION,IM3590,Ver. 1.07,Serial No. 150331077
,,,
DATE,2021/9/24,,
TIME,15:57:07,,
,,,
SOURCE,FREQ,,
TRIG,SEQ,,
DRAW,REAL,,
TRIG DELAY,0,s,
SEGMENT,OFF,,
CC,5,mA,
BATTERY,ON,,
RANGE,AUTO,,
SPEED,---,,
AVG,2,,
POINT DELAY,0,s,
,,,
BATT,4.1,V,
No.,FREQUENCY[Hz],RS[ohm],X[ohm]
1,5.00000E+03,2.19200E-02,8.09000E-03
2,3.40650E+03,2.16100E-02,4.84000E-03
3,2.32080E+03,2.17100E-02,2.31000E-03
4,1.58110E+03,2.20100E-02,2.60000E-04
5,1.07720E+03,2.26300E-02,-1.34000E-03
6,7.33900E+02,2.35200E-02,-2.76000E-03
7,5.00000E+02,2.44800E-02,-3.88000E-03
8,3.40650E+02,2.58100E-02,-4.89000E-03
9,2.32080E+02,2.72500E-02,-5.94000E-03
10,1.58110E+02,2.88100E-02,-6.52000E-03
11,1.07720E+02,3.08900E-02,-7.40000E-03
12,7.33900E+01,3.24900E-02,-8.00000E-03
13,5.00000E+01,3.49500E-02,-8.79000E-03
14,3.40650E+01,3.72000E-02,-9.34000E-03
15,2.32080E+01,3.93000E-02,-9.59000E-03
16,1.58110E+01,4.11200E-02,-1.02700E-02
17,1.07720E+01,4.33000E-02,-1.08000E-02
18,7.33900E+00,4.51600E-02,-1.20600E-02
19,5.00000E+00,4.75700E-02,-1.34900E-02
20,3.40600E+00,4.98400E-02,-1.64600E-02
21,2.32100E+00,5.29700E-02,-1.99000E-02
22,1.58100E+00,5.70200E-02,-2.45200E-02
23,1.07700E+00,6.41800E-02,-3.07800E-02
24,7.34000E-01,7.44000E-02,-3.60400E-02
25,5.00000E-01,8.69900E-02,-3.92700E-02
26,3.41000E-01,1.01310E-01,-3.83100E-02
27,2.32000E-01,1.13530E-01,-3.46800E-02
28,1.58000E-01,1.22120E-01,-2.83800E-02
29,1.08000E-01,1.28020E-01,-2.30000E-02
30,7.30000E-02,1.32310E-01,-1.98400E-02
31,5.00000E-02,1.35160E-01,-1.71200E-02

File: 211117D_soc100_t10.csv
HIOKI E.E. CORPORATION,IM3590,Ver. 1.07,Serial No. 150331077
,,,
DATE,2021/11/17,,
TIME,14:29:05,,
,,,
SOURCE,FREQ,,
TRIG,SEQ,,
DRAW,REAL,,
TRIG DELAY,0,s,
SEGMENT,OFF,,
CC,5,mA,
BATTERY,ON,,
RANGE,AUTO,,
SPEED,---,,
AVG,2,,
POINT DELAY,0,s,
,,,
BATT,4.099,V,
No.,FREQUENCY[Hz],RS[ohm],X[ohm]
1,5000 ,0.02212 ,0.00570
2,3406.5 ,0.02175 ,0.00326
3,2320.8 ,0.02184 ,0.00124
4,1581.1 ,0.02216 ,-0.00039
5,1077.2 ,0.02274 ,-0.00175
6,733.9 ,0.02362 ,-0.00292
7,500 ,0.02465 ,-0.00390
8,340.65 ,0.02583 ,-0.00487
9,232.08 ,0.02728 ,-0.00575
10,158.11 ,0.02858 ,-0.00655
11,107.72 ,0.03043 ,-0.00726
12,73.39000 ,0.03248 ,-0.00782
13,50.00000 ,0.03465 ,-0.00831
14,34.06500 ,0.03645 ,-0.00894
15,23.20800 ,0.03870 ,-0.00926
16,15.81100 ,0.04076 ,-0.00951
17,10.77200 ,0.04272 ,-0.01026
18,7.33900 ,0.04466 ,-0.01141
19,5.00000 ,0.04670 ,-0.01319
20,3.40600 ,0.04884 ,-0.01588
21,2.32100 ,0.05253 ,-0.01959
22,1.58100 ,0.05650 ,-0.02516
23,1.07700 ,0.06352 ,-0.03162
24,0.73400 ,0.07352 ,-0.03864
25,0.50000 ,0.08736 ,-0.04320
26,0.34100 ,0.10207 ,-0.04429
27,0.23200 ,0.11653 ,-0.04021
28,0.15800 ,0.12735 ,-0.03509
29,0.10800 ,0.13449 ,-0.02837
30,0.07300 ,0.13976 ,-0.02318
31,0.05000 ,0.14194 ,-0.02016