Folder: naibun/data/温度30℃

File: 210914A_soc100_t30.csv
HIOKI E.E. CORPORATION,IM3590,Ver. 1.07,Serial No. 150331077,,
,,,,,
DATE,2021/9/14,,,,
TIME,16:39:17,,,,
,,,,,
SOURCE,FREQ,,,,
TRIG,SEQ,,,,
DRAW,REAL,,,,
TRIG DELAY,0,s,,,
SEGMENT,OFF,,,,
CC,5,mA,,,
BATTERY,ON,,,,
RANGE,AUTO,,,,
SPEED,---,,,,
AVG,2,,,,
POINT DELAY,0,s,,,
,,,,,
BATT,4.109,V,,,
No.,FREQUENCY[Hz],RS[ohm],X[ohm],”½“]RS,X
1,5000 ,0.02130 ,0.00941 ,2.13E-02,-9.41E-03
2,3410 ,0.02080 ,0.00612 ,2.08E-02,-6.12E-03
3,2320 ,0.02070 ,0.00370 ,2.07E-02,-3.70E-03
4,1580 ,0.02080 ,0.00183 ,2.08E-02,-1.83E-03
5,1080 ,0.02120 ,0.00047 ,2.12E-02,-4.70E-04
6,734 ,0.02170 ,-0.00046 ,2.17E-02,4.60E-04
7,500 ,0.02220 ,-0.00124 ,2.22E-02,1.24E-03
8,341 ,0.02280 ,-0.00176 ,2.28E-02,1.76E-03
9,232 ,0.02340 ,-0.00186 ,2.34E-02,1.86E-03
10,158 ,0.02420 ,-0.00234 ,2.42E-02,2.34E-03
11,108 ,0.02470 ,-0.00276 ,2.47E-02,2.76E-03
12,73.40000 ,0.02570 ,-0.00295 ,2.57E-02,2.95E-03
13,50.00000 ,0.02650 ,-0.00316 ,2.65E-02,3.16E-03
14,34.10000 ,0.02710 ,-0.00320 ,2.71E-02,3.20E-03
15,23.20000 ,0.02760 ,-0.00311 ,2.76E-02,3.11E-03
16,15.80000 ,0.02830 ,-0.00352 ,2.83E-02,3.52E-03
17,10.80000 ,0.02910 ,-0.00418 ,2.91E-02,4.18E-03
18,7.34000 ,0.03020 ,-0.00495 ,3.02E-02,4.95E-03
19,5.00000 ,0.03170 ,-0.00541 ,3.17E-02,5.41E-03
20,3.41000 ,0.03350 ,-0.00570 ,3.35E-02,5.70E-03
21,2.32000 ,0.03460 ,-0.00502 ,3.46E-02,5.02E-03
22,1.58000 ,0.03650 ,-0.00473 ,3.65E-02,4.73E-03
23,1.08000 ,0.03740 ,-0.00420 ,3.74E-02,4.20E-03
24,0.73400 ,0.03860 ,-0.00328 ,3.86E-02,3.28E-03
25,0.50000 ,0.03890 ,-0.00319 ,3.89E-02,3.19E-03
26,0.34100 ,0.03930 ,-0.00238 ,3.93E-02,2.38E-03
27,0.23200 ,0.03980 ,-0.00327 ,3.98E-02,3.27E-03
28,0.15800 ,0.04010 ,-0.00261 ,4.01E-02,2.61E-03
29,0.10800 ,0.04090 ,-0.00379 ,4.09E-02,3.79E-03
30,0.07300 ,0.04130 ,-0.00356 ,4.13E-02,3.56E-03
31,0.05000 ,0.04150 ,-0.00477 ,4.15E-02,4.77E-03

File: 210917B_soc100_t30.csv
HIOKI E.E. CORPORATION,IM3590,Ver. 1.07,Serial No. 150331077,,
,,,,,
DATE,2021/9/17,,,,
TIME,15:49:13,,,,
,,,,,
SOURCE,FREQ,,,,
TRIG,SEQ,,,,
DRAW,REAL,,,,
TRIG DELAY,0,s,,,
SEGMENT,OFF,,,,
CC,5,mA,,,
BATTERY,ON,,,,
RANGE,AUTO,,,,
SPEED,---,,,,
AVG,2,,,,
POINT DELAY,0,s,,,
,,,,,
BATT,4.083,V,,,
No.,FREQUENCY[Hz],RS[ohm],X[ohm],,
1,5000 ,0.02080 ,0.00942 ,2.08E-02,-9.42E-03
2,3410 ,0.02040 ,0.00601 ,2.04E-02,-6.01E-03
3,2320 ,0.02030 ,0.00354 ,2.03E-02,-3.54E-03
4,1580 ,0.02050 ,0.00165 ,2.05E-02,-1.65E-03
5,1080 ,0.02090 ,0.00029 ,2.09E-02,-2.90E-04
6,734 ,0.02140 ,-0.00077 ,2.14E-02,7.70E-04
7,500 ,0.02210 ,-0.00151 ,2.21E-02,1.51E-03
8,341 ,0.02280 ,-0.00217 ,2.28E-02,2.17E-03
9,232 ,0.02360 ,-0.00259 ,2.36E-02,2.59E-03
10,158 ,0.02420 ,-0.00284 ,2.42E-02,2.84E-03
11,108 ,0.02510 ,-0.00305 ,2.51E-02,3.05E-03
12,73.40000 ,0.02570 ,-0.00324 ,2.57E-02,3.24E-03
13,50.00000 ,0.02690 ,-0.00302 ,2.69E-02,3.02E-03
14,34.10000 ,0.02760 ,-0.00332 ,2.76E-02,3.32E-03
15,23.20000 ,0.02820 ,-0.00360 ,2.82E-02,3.60E-03
16,15.80000 ,0.02930 ,-0.00354 ,2.93E-02,3.54E-03
17,10.80000 ,0.03010 ,-0.00370 ,3.01E-02,3.70E-03
18,7.34000 ,0.03120 ,-0.00394 ,3.12E-02,3.94E-03
19,5.00000 ,0.03220 ,-0.00365 ,3.22E-02,3.65E-03
20,3.41000 ,0.03300 ,-0.00324 ,3.30E-02,3.24E-03
21,2.32000 ,0.03380 ,-0.00274 ,3.38E-02,2.74E-03
22,1.58000 ,0.03450 ,-0.00249 ,3.45E-02,2.49E-03
23,1.08000 ,0.03470 ,-0.00214 ,3.47E-02,2.14E-03
24,0.73400 ,0.03530 ,-0.00188 ,3.53E-02,1.88E-03
25,0.50000 ,0.03570 ,-0.00182 ,3.57E-02,1.82E-03
26,0.34100 ,0.03540 ,-0.00177 ,3.54E-02,1.77E-03
27,0.23200 ,0.03610 ,-0.00188 ,3.61E-02,1.88E-03
28,0.15800 ,0.03680 ,-0.00189 ,3.68E-02,1.89E-03
29,0.10800 ,0.03790 ,-0.00325 ,3.79E-02,3.25E-03
30,0.07300 ,0.03770 ,-0.00346 ,3.77E-02,3.46E-03
31,0.05000 ,0.03840 ,-0.00453 ,3.84E-02,4.53E-03

File: 210922C_soc100_t30.csv
HIOKI E.E. CORPORATION,IM3590,Ver. 1.07,Serial No. 150331077
,,,
DATE,2021/9/22,,
TIME,15:47:10,,
,,,
SOURCE,FREQ,,
TRIG,SEQ,,
DRAW,REAL,,
TRIG DELAY,0,s,
SEGMENT,OFF,,
CC,5,mA,
BATTERY,ON,,
RANGE,AUTO,,
SPEED,---,,
AVG,2,,
POINT DELAY,0,s,
,,,
BATT,4.107,V,
No.,FREQUENCY[Hz],RS[ohm],X[ohm]
1,5000 ,0.02103 ,0.00919
2,3406.5 ,0.02054 ,0.00596
3,2320.8 ,0.02042 ,0.00354
4,1581.1 ,0.02057 ,0.00173
5,1077.2 ,0.02086 ,0.00040
6,733.9 ,0.02148 ,-0.00060
7,500 ,0.02203 ,-0.00131
8,340.65 ,0.02263 ,-0.00182
9,232.08 ,0.02335 ,-0.00236
10,158.11 ,0.02400 ,-0.00252
11,107.72 ,0.02466 ,-0.00270
12,73.39000 ,0.02559 ,-0.00316
13,50.00000 ,0.02632 ,-0.00327
14,34.06500 ,0.02704 ,-0.00343
15,23.20800 ,0.02791 ,-0.00362
16,15.81100 ,0.02845 ,-0.00390
17,10.77200 ,0.02929 ,-0.00460
18,7.33900 ,0.03011 ,-0.00533
19,5.00000 ,0.03190 ,-0.00629
20,3.40600 ,0.03380 ,-0.00644
21,2.32100 ,0.03576 ,-0.00683
22,1.58100 ,0.03824 ,-0.00625
23,1.07700 ,0.03954 ,-0.00513
24,0.73400 ,0.04068 ,-0.00434
25,0.50000 ,0.04192 ,-0.00390
26,0.34100 ,0.04209 ,-0.00294
27,0.23200 ,0.04240 ,-0.00314
28,0.15800 ,0.04294 ,-0.00350
29,0.10800 ,0.04343 ,-0.00348
30,0.07300 ,0.04469 ,-0.00483
31,0.05000 ,0.04455 ,-0.00357

File: 211020D_soc100_t30.csv
HIOKI E.E. CORPORATION,IM3590,Ver. 1.07,Serial No. 150331077
,,,
DATE,2021/10/20,,
TIME,12:06:04,,
,,,
SOURCE,FREQ,,
TRIG,SEQ,,
DRAW,REAL,,
TRIG DELAY,0,s,
SEGMENT,OFF,,
CC,5,mA,
BATTERY,ON,,
RANGE,AUTO,,
SPEED,---,,
AVG,2,,
POINT DELAY,0,s,
,,,
BATT,3.927,V,
No.,FREQUENCY[Hz],RS[ohm],X[ohm]
1,5000 ,0.02075 ,0.00945
2,3406.5 ,0.02035 ,0.00612
3,2320.8 ,0.02017 ,0.00366
4,1581.1 ,0.02040 ,0.00179
5,1077.2 ,0.02072 ,0.00042
6,733.9 ,0.02125 ,-0.00055
7,500 ,0.02184 ,-0.00133
8,340.65 ,0.02241 ,-0.00194
9,232.08 ,0.02329 ,-0.00236
10,158.11 ,0.02411 ,-0.00267
11,107.72 ,0.02478 ,-0.00304
12,73.39000 ,0.02561 ,-0.00316
13,50.00000 ,0.02656 ,-0.00327
14,34.06500 ,0.02754 ,-0.00323
15,23.20800 ,0.02818 ,-0.00338
16,15.81100 ,0.02893 ,-0.00340
17,10.77200 ,0.02992 ,-0.00343
18,7.33900 ,0.03086 ,-0.00305
19,5.00000 ,0.03155 ,-0.00291
20,3.40600 ,0.03197 ,-0.00255
21,2.32100 ,0.03263 ,-0.00219
22,1.58100 ,0.03314 ,-0.00182
23,1.07700 ,0.03322 ,-0.00176
24,0.73400 ,0.03370 ,-0.00155
25,0.50000 ,0.03397 ,-0.00182
26,0.34100 ,0.03417 ,-0.00180
27,0.23200 ,0.03450 ,-0.00242
28,0.15800 ,0.03502 ,-0.00219
29,0.10800 ,0.03533 ,-0.00320
30,0.07300 ,0.03609 ,-0.00341
31,0.05000 ,0.03692 ,-0.00421