Folder: naibun/data/温度0℃

File: 210922B_soc100_t0.csv
HIOKI E.E. CORPORATION,IM3590,Ver. 1.07,Serial No. 150331077
,,,
DATE,2021/9/22,,
TIME,14:22:50,,
,,,
SOURCE,FREQ,,
TRIG,SEQ,,
DRAW,REAL,,
TRIG DELAY,0,s,
SEGMENT,OFF,,
CC,5,mA,
BATTERY,ON,,
RANGE,AUTO,,
SPEED,---,,
AVG,2,,
POINT DELAY,0,s,
,,,
BATT,4.106,V,
No.,FREQUENCY[Hz],RS[ohm],X[ohm]
1,5000 ,0.02233 ,0.00732
2,3406.5 ,0.02216 ,0.00396
3,2320.8 ,0.02229 ,0.00124
4,1581.1 ,0.02289 ,-0.00093
5,1077.2 ,0.02372 ,-0.00277
6,733.9 ,0.02492 ,-0.00440
7,500 ,0.02625 ,-0.00597
8,340.65 ,0.02801 ,-0.00757
9,232.08 ,0.03005 ,-0.00877
10,158.11 ,0.03242 ,-0.01041
11,107.72 ,0.03470 ,-0.01231
12,73.39000 ,0.03837 ,-0.01392
13,50.00000 ,0.04169 ,-0.01610
14,34.06500 ,0.04533 ,-0.01773
15,23.20800 ,0.04982 ,-0.01978
16,15.81100 ,0.05503 ,-0.02218
17,10.77200 ,0.06060 ,-0.02447
18,7.33900 ,0.06562 ,-0.02647
19,5.00000 ,0.07181 ,-0.02890
20,3.40600 ,0.07746 ,-0.03156
21,2.32100 ,0.08343 ,-0.03624
22,1.58100 ,0.09024 ,-0.04219
23,1.07700 ,0.09825 ,-0.05094
24,0.73400 ,0.10928 ,-0.06291
25,0.50000 ,0.12455 ,-0.07722
26,0.34100 ,0.14776 ,-0.09153
27,0.23200 ,0.17931 ,-0.10262
28,0.15800 ,0.21598 ,-0.10353
29,0.10800 ,0.24908 ,-0.09599
30,0.07300 ,0.27602 ,-0.08062
31,0.05000 ,0.29289 ,-0.06468

File: 210924C_soc100_t0.csv
HIOKI E.E. CORPORATION,IM3590,Ver. 1.07,Serial No. 150331077
,,,
DATE,2021/9/24,,
TIME,17:11:07,,
,,,
SOURCE,FREQ,,
TRIG,SEQ,,
DRAW,REAL,,
TRIG DELAY,0,s,
SEGMENT,OFF,,
CC,5,mA,
BATTERY,ON,,
RANGE,AUTO,,
SPEED,---,,
AVG,2,,
POINT DELAY,0,s,
,,,
BATT,4.099,V,
No.,FREQUENCY[Hz],RS[ohm],X[ohm]
1,5000 ,0.02272 ,0.00759
2,3406.5 ,0.02245 ,0.00426
3,2320.8 ,0.02257 ,0.00153
4,1581.1 ,0.02306 ,-0.00052
5,1077.2 ,0.02382 ,-0.00233
6,733.9 ,0.02489 ,-0.00397
7,500 ,0.02617 ,-0.00541
8,340.65 ,0.02778 ,-0.00674
9,232.08 ,0.02953 ,-0.00829
10,158.11 ,0.03161 ,-0.00936
11,107.72 ,0.03456 ,-0.01076
12,73.39000 ,0.03692 ,-0.01236
13,50.00000 ,0.04043 ,-0.01392
14,34.06500 ,0.04378 ,-0.01536
15,23.20800 ,0.04761 ,-0.01673
16,15.81100 ,0.05179 ,-0.01802
17,10.77200 ,0.05604 ,-0.01942
18,7.33900 ,0.06030 ,-0.02121
19,5.00000 ,0.06519 ,-0.02337
20,3.40600 ,0.06937 ,-0.02668
21,2.32100 ,0.07427 ,-0.03111
22,1.58100 ,0.07992 ,-0.03737
23,1.07700 ,0.08716 ,-0.04606
24,0.73400 ,0.09721 ,-0.05891
25,0.50000 ,0.11190 ,-0.07333
26,0.34100 ,0.13406 ,-0.08832
27,0.23200 ,0.16398 ,-0.09891
28,0.15800 ,0.19815 ,-0.09982
29,0.10800 ,0.22934 ,-0.09180
30,0.07300 ,0.25542 ,-0.07788
31,0.05000 ,0.27169 ,-0.06408

File: 211118A_soc100_t0.csv
HIOKI E.E. CORPORATION,IM3590,Ver. 1.07,Serial No. 150331077
,,,
DATE,2021/11/18,,
TIME,16:13:56,,
,,,
SOURCE,FREQ,,
TRIG,SEQ,,
DRAW,REAL,,
TRIG DELAY,0,s,
SEGMENT,OFF,,
CC,5,mA,
BATTERY,ON,,
RANGE,AUTO,,
SPEED,---,,
AVG,2,,
POINT DELAY,0,s,
,,,
BATT,4.088,V,
No.,FREQUENCY[Hz],RS[ohm],X[ohm]
1,5000 ,0.02342 ,0.00643
2,3406.5 ,0.02314 ,0.00353
3,2320.8 ,0.02318 ,0.00108
4,1581.1 ,0.02367 ,-0.00074
5,1077.2 ,0.02445 ,-0.00239
6,733.9 ,0.02541 ,-0.00383
7,500 ,0.02673 ,-0.00514
8,340.65 ,0.02814 ,-0.00646
9,232.08 ,0.02972 ,-0.00752
10,158.11 ,0.03186 ,-0.00880
11,107.72 ,0.03422 ,-0.01011
12,73.39000 ,0.03679 ,-0.01140
13,50.00000 ,0.03988 ,-0.01252
14,34.06500 ,0.04342 ,-0.01387
15,23.20800 ,0.04650 ,-0.01504
16,15.81100 ,0.04993 ,-0.01611
17,10.77200 ,0.05375 ,-0.01716
18,7.33900 ,0.05746 ,-0.01850
19,5.00000 ,0.06139 ,-0.02071
20,3.40600 ,0.06518 ,-0.02377
21,2.32100 ,0.07025 ,-0.02755
22,1.58100 ,0.07500 ,-0.03375
23,1.07700 ,0.08156 ,-0.04265
24,0.73400 ,0.09217 ,-0.05351
25,0.50000 ,0.10732 ,-0.06728
26,0.34100 ,0.12971 ,-0.08045
27,0.23200 ,0.15855 ,-0.08807
28,0.15800 ,0.18915 ,-0.08787
29,0.10800 ,0.21659 ,-0.07913
30,0.07300 ,0.23623 ,-0.06590
31,0.05000 ,0.25027 ,-0.05347

File: 211118D_soc100_t0.csv
HIOKI E.E. CORPORATION,IM3590,Ver. 1.07,Serial No. 150331077
,,,
DATE,2021/11/18,,
TIME,16:06:27,,
,,,
SOURCE,FREQ,,
TRIG,SEQ,,
DRAW,REAL,,
TRIG DELAY,0,s,
SEGMENT,OFF,,
CC,5,mA,
BATTERY,ON,,
RANGE,AUTO,,
SPEED,---,,
AVG,2,,
POINT DELAY,0,s,
,,,
BATT,3.903,V,
No.,FREQUENCY[Hz],RS[ohm],X[ohm]
1,5000 ,0.02275 ,0.00571
2,3406.5 ,0.02244 ,0.00310
3,2320.8 ,0.02255 ,0.00094
4,1581.1 ,0.02296 ,-0.00081
5,1077.2 ,0.02365 ,-0.00234
6,733.9 ,0.02463 ,-0.00370
7,500 ,0.02580 ,-0.00489
8,340.65 ,0.02712 ,-0.00616
9,232.08 ,0.02877 ,-0.00736
10,158.11 ,0.03085 ,-0.00840
11,107.72 ,0.03263 ,-0.00955
12,73.39000 ,0.03544 ,-0.01120
13,50.00000 ,0.03829 ,-0.01214
14,34.06500 ,0.04154 ,-0.01338
15,23.20800 ,0.04501 ,-0.01482
16,15.81100 ,0.04844 ,-0.01612
17,10.77200 ,0.05241 ,-0.01689
18,7.33900 ,0.05597 ,-0.01800
19,5.00000 ,0.06006 ,-0.01960
20,3.40600 ,0.06527 ,-0.02213
21,2.32100 ,0.07104 ,-0.02432
22,1.58100 ,0.07839 ,-0.02672
23,1.07700 ,0.08700 ,-0.02815
24,0.73400 ,0.09666 ,-0.02813
25,0.50000 ,0.10605 ,-0.02606
26,0.34100 ,0.11348 ,-0.02256
27,0.23200 ,0.11895 ,-0.01858
28,0.15800 ,0.12324 ,-0.01514
29,0.10800 ,0.12667 ,-0.01296
30,0.07300 ,0.12978 ,-0.01163
31,0.05000 ,0.13213 ,-0.01182