Folder: naibun/data/温度25℃

File: 210914A_soc100_t25.csv
HIOKI E.E. CORPORATION,IM3590,Ver. 1.07,Serial No. 150331077,,
,,,,,
DATE,2021/9/14,,,,
TIME,17:11:56,,,,
,,,,,
SOURCE,FREQ,,,,
TRIG,SEQ,,,,
DRAW,REAL,,,,
TRIG DELAY,0,s,,,
SEGMENT,OFF,,,,
CC,5,mA,,,
BATTERY,ON,,,,
RANGE,AUTO,,,,
SPEED,---,,,,
AVG,2,,,,
POINT DELAY,0,s,,,
,,,,,
BATT,4.108,V,,,
No.,FREQUENCY[Hz],RS[ohm],X[ohm],,
1,5000 ,0.02140 ,0.00924 ,2.14E-02,-9.24E-03
2,3410 ,0.02100 ,0.00593 ,2.10E-02,-5.93E-03
3,2320 ,0.02090 ,0.00332 ,2.09E-02,-3.32E-03
4,1580 ,0.02110 ,0.00151 ,2.11E-02,-1.51E-03
5,1080 ,0.02150 ,0.00009 ,2.15E-02,-9.00E-05
6,734 ,0.02210 ,-0.00096 ,2.21E-02,9.60E-04
7,500 ,0.02270 ,-0.00176 ,2.27E-02,1.76E-03
8,341 ,0.02350 ,-0.00241 ,2.35E-02,2.41E-03
9,232 ,0.02420 ,-0.00259 ,2.42E-02,2.59E-03
10,158 ,0.02510 ,-0.00365 ,2.51E-02,3.65E-03
11,108 ,0.02590 ,-0.00331 ,2.59E-02,3.31E-03
12,73.40000 ,0.02710 ,-0.00368 ,2.71E-02,3.68E-03
13,50.00000 ,0.02800 ,-0.00363 ,2.80E-02,3.63E-03
14,34.10000 ,0.02900 ,-0.00404 ,2.90E-02,4.04E-03
15,23.20000 ,0.02960 ,-0.00439 ,2.96E-02,4.39E-03
16,15.80000 ,0.03070 ,-0.00454 ,3.07E-02,4.54E-03
17,10.80000 ,0.03130 ,-0.00510 ,3.13E-02,5.10E-03
18,7.34000 ,0.03230 ,-0.00590 ,3.23E-02,5.90E-03
19,5.00000 ,0.03420 ,-0.00657 ,3.42E-02,6.57E-03
20,3.41000 ,0.03620 ,-0.00781 ,3.62E-02,7.81E-03
21,2.32000 ,0.03880 ,-0.00823 ,3.88E-02,8.23E-03
22,1.58000 ,0.04130 ,-0.00827 ,4.13E-02,8.27E-03
23,1.08000 ,0.04410 ,-0.00708 ,4.41E-02,7.08E-03
24,0.73400 ,0.04570 ,-0.00633 ,4.57E-02,6.33E-03
25,0.50000 ,0.04710 ,-0.00513 ,4.71E-02,5.13E-03
26,0.34100 ,0.04780 ,-0.00432 ,4.78E-02,4.32E-03
27,0.23200 ,0.04820 ,-0.00387 ,4.82E-02,3.87E-03
28,0.15800 ,0.04830 ,-0.00412 ,4.83E-02,4.12E-03
29,0.10800 ,0.04950 ,-0.00389 ,4.95E-02,3.89E-03
30,0.07300 ,0.05020 ,-0.00412 ,5.02E-02,4.12E-03
31,0.05000 ,0.05100 ,-0.00508 ,5.10E-02,5.08E-03

File: 210917B_soc100_t25.csv
HIOKI E.E. CORPORATION,IM3590,Ver. 1.07,Serial No. 150331077
,,,
DATE,2021/9/17,,
TIME,16:13:18,,
,,,
SOURCE,FREQ,,
TRIG,SEQ,,
DRAW,REAL,,
TRIG DELAY,0,s,
SEGMENT,OFF,,
CC,5,mA,
BATTERY,ON,,
RANGE,AUTO,,
SPEED,---,,
AVG,2,,
POINT DELAY,0,s,
,,,
BATT,4.082,V,
No.,FREQUENCY[Hz],RS[ohm],X[ohm]
1,5000 ,0.02088 ,0.00930
2,3406.5 ,0.02048 ,0.00590
3,2320.8 ,0.02044 ,0.00333
4,1581.1 ,0.02067 ,0.00142
5,1077.2 ,0.02107 ,0.00001
6,733.9 ,0.02164 ,-0.00108
7,500 ,0.02242 ,-0.00190
8,340.65 ,0.02321 ,-0.00255
9,232.08 ,0.02399 ,-0.00300
10,158.11 ,0.02493 ,-0.00334
11,107.72 ,0.02574 ,-0.00389
12,73.39000 ,0.02692 ,-0.00378
13,50.00000 ,0.02796 ,-0.00405
14,34.06500 ,0.02884 ,-0.00406
15,23.20800 ,0.02982 ,-0.00412
16,15.81100 ,0.03093 ,-0.00410
17,10.77200 ,0.03174 ,-0.00443
18,7.33900 ,0.03288 ,-0.00465
19,5.00000 ,0.03412 ,-0.00464
20,3.40600 ,0.03587 ,-0.00459
21,2.32100 ,0.03702 ,-0.00404
22,1.58100 ,0.03810 ,-0.00352
23,1.07700 ,0.03887 ,-0.00331
24,0.73400 ,0.03939 ,-0.00260
25,0.50000 ,0.03919 ,-0.00246
26,0.34100 ,0.04031 ,-0.00247
27,0.23200 ,0.04031 ,-0.00257
28,0.15800 ,0.04023 ,-0.00245
29,0.10800 ,0.04126 ,-0.00336
30,0.07300 ,0.04183 ,-0.00345
31,0.05000 ,0.04256 ,-0.00428

File: 210924C_soc100_t25.csv
HIOKI E.E. CORPORATION,IM3590,Ver. 1.07,Serial No. 150331077
,,,
DATE,2021/9/24,,
TIME,14:16:21,,
,,,
SOURCE,FREQ,,
TRIG,SEQ,,
DRAW,REAL,,
TRIG DELAY,0,s,
SEGMENT,OFF,,
CC,5,mA,
BATTERY,ON,,
RANGE,AUTO,,
SPEED,---,,
AVG,2,,
POINT DELAY,0,s,
,,,
BATT,4.101,V,
No.,FREQUENCY[Hz],RS[ohm],X[ohm]
1,5000 ,0.02117 ,0.00866
2,3406.5 ,0.02072 ,0.00549
3,2320.8 ,0.02067 ,0.00304
4,1581.1 ,0.02088 ,0.00127
5,1077.2 ,0.02128 ,-0.00011
6,733.9 ,0.02194 ,-0.00113
7,500 ,0.02261 ,-0.00194
8,340.65 ,0.02339 ,-0.00258
9,232.08 ,0.02411 ,-0.00282
10,158.11 ,0.02522 ,-0.00314
11,107.72 ,0.02596 ,-0.00370
12,73.39000 ,0.02735 ,-0.00409
13,50.00000 ,0.02861 ,-0.00415
14,34.06500 ,0.02948 ,-0.00450
15,23.20800 ,0.03001 ,-0.00470
16,15.81100 ,0.03089 ,-0.00493
17,10.77200 ,0.03185 ,-0.00567
18,7.33900 ,0.03288 ,-0.00655
19,5.00000 ,0.03440 ,-0.00817
20,3.40600 ,0.03673 ,-0.00960
21,2.32100 ,0.04030 ,-0.01109
22,1.58100 ,0.04387 ,-0.01182
23,1.07700 ,0.04747 ,-0.01139
24,0.73400 ,0.05132 ,-0.01021
25,0.50000 ,0.05265 ,-0.00837
26,0.34100 ,0.05415 ,-0.00695
27,0.23200 ,0.05607 ,-0.00602
28,0.15800 ,0.05544 ,-0.00513
29,0.10800 ,0.05818 ,-0.00550
30,0.07300 ,0.05748 ,-0.00536
31,0.05000 ,0.05812 ,-0.00581

File: 211020D_soc100_t25.csv
HIOKI E.E. CORPORATION,IM3590,Ver. 1.07,Serial No. 150331077
,,,
DATE,2021/10/20,,
TIME,13:06:09,,
,,,
SOURCE,FREQ,,
TRIG,SEQ,,
DRAW,REAL,,
TRIG DELAY,0,s,
SEGMENT,OFF,,
CC,5,mA,
BATTERY,ON,,
RANGE,AUTO,,
SPEED,---,,
AVG,2,,
POINT DELAY,0,s,
,,,
BATT,3.927,V,
No.,FREQUENCY[Hz],RS[ohm],X[ohm]
1,5000 ,0.02089 ,0.00933
2,3406.5 ,0.02048 ,0.00596
3,2320.8 ,0.02048 ,0.00346
4,1581.1 ,0.02059 ,0.00156
5,1077.2 ,0.02098 ,0.00016
6,733.9 ,0.02161 ,-0.00091
7,500 ,0.02223 ,-0.00178
8,340.65 ,0.02298 ,-0.00238
9,232.08 ,0.02371 ,-0.00300
10,158.11 ,0.02468 ,-0.00330
11,107.72 ,0.02582 ,-0.00348
12,73.39000 ,0.02651 ,-0.00378
13,50.00000 ,0.02772 ,-0.00384
14,34.06500 ,0.02864 ,-0.00411
15,23.20800 ,0.02962 ,-0.00429
16,15.81100 ,0.03070 ,-0.00440
17,10.77200 ,0.03182 ,-0.00424
18,7.33900 ,0.03289 ,-0.00438
19,5.00000 ,0.03401 ,-0.00411
20,3.40600 ,0.03516 ,-0.00322
21,2.32100 ,0.03583 ,-0.00315
22,1.58100 ,0.03640 ,-0.00269
23,1.07700 ,0.03672 ,-0.00243
24,0.73400 ,0.03736 ,-0.00253
25,0.50000 ,0.03778 ,-0.00217
26,0.34100 ,0.03785 ,-0.00226
27,0.23200 ,0.03825 ,-0.00270
28,0.15800 ,0.03907 ,-0.00253
29,0.10800 ,0.03950 ,-0.00301
30,0.07300 ,0.03969 ,-0.00405
31,0.05000 ,0.04126 ,-0.00387