Folder: naibun/data/温度15℃

File: 210916A_soc100_t15.csv
HIOKI E.E. CORPORATION,IM3590,Ver. 1.07,Serial No. 150331077,,
,,,,,
DATE,2021/9/16,,,,
TIME,15:09:33,,,,
,,,,,
SOURCE,FREQ,,,,
TRIG,SEQ,,,,
DRAW,REAL,,,,
TRIG DELAY,0,s,,,
SEGMENT,OFF,,,,
CC,5,mA,,,
BATTERY,ON,,,,
RANGE,AUTO,,,,
SPEED,---,,,,
AVG,2,,,,
POINT DELAY,0,s,,,
,,,,,
BATT,4.107,V,,,
No.,FREQUENCY[Hz],RS[ohm],X[ohm],,
1,5000 ,0.02180 ,0.00946 ,2.18E-02,-9.46E-03
2,3410 ,0.02140 ,0.00590 ,2.14E-02,-5.90E-03
3,2320 ,0.02140 ,0.00322 ,2.14E-02,-3.22E-03
4,1580 ,0.02170 ,0.00112 ,2.17E-02,-1.12E-03
5,1080 ,0.02220 ,-0.00047 ,2.22E-02,4.70E-04
6,734 ,0.02300 ,-0.00169 ,2.30E-02,1.69E-03
7,500 ,0.02370 ,-0.00273 ,2.37E-02,2.73E-03
8,341 ,0.02480 ,-0.00364 ,2.48E-02,3.64E-03
9,232 ,0.02620 ,-0.00427 ,2.62E-02,4.27E-03
10,158 ,0.02720 ,-0.00454 ,2.72E-02,4.54E-03
11,108 ,0.02870 ,-0.00554 ,2.87E-02,5.54E-03
12,73.40000 ,0.03020 ,-0.00570 ,3.02E-02,5.70E-03
13,50.00000 ,0.03170 ,-0.00598 ,3.17E-02,5.98E-03
14,34.10000 ,0.03320 ,-0.00606 ,3.32E-02,6.06E-03
15,23.20000 ,0.03430 ,-0.00639 ,3.43E-02,6.39E-03
16,15.80000 ,0.03570 ,-0.00696 ,3.57E-02,6.96E-03
17,10.80000 ,0.03700 ,-0.00761 ,3.70E-02,7.61E-03
18,7.34000 ,0.03840 ,-0.00882 ,3.84E-02,8.82E-03
19,5.00000 ,0.03980 ,-0.01070 ,3.98E-02,1.07E-02
20,3.41000 ,0.04210 ,-0.01290 ,4.21E-02,1.29E-02
21,2.32000 ,0.04540 ,-0.01630 ,4.54E-02,1.63E-02
22,1.58000 ,0.04990 ,-0.01920 ,4.99E-02,1.92E-02
23,1.08000 ,0.05660 ,-0.02120 ,5.66E-02,2.12E-02
24,0.73400 ,0.06370 ,-0.02110 ,6.37E-02,2.11E-02
25,0.50000 ,0.07080 ,-0.01960 ,7.08E-02,1.96E-02
26,0.34100 ,0.07620 ,-0.01680 ,7.62E-02,1.68E-02
27,0.23200 ,0.07960 ,-0.01380 ,7.96E-02,1.38E-02
28,0.15800 ,0.08180 ,-0.01120 ,8.18E-02,1.12E-02
29,0.10800 ,0.08450 ,-0.01000 ,8.45E-02,1.00E-02
30,0.07300 ,0.08560 ,-0.00922 ,8.56E-02,9.22E-03
31,0.05000 ,0.08750 ,-0.00895 ,8.75E-02,8.95E-03

File: 210921B_soc100_t15.csv
HIOKI E.E. CORPORATION,IM3590,Ver. 1.07,Serial No. 150331077
,,,
DATE,2021/9/21,,
TIME,16:29:42,,
,,,
SOURCE,FREQ,,
TRIG,SEQ,,
DRAW,REAL,,
TRIG DELAY,0,s,
SEGMENT,OFF,,
CC,5,mA,
BATTERY,ON,,
RANGE,AUTO,,
SPEED,---,,
AVG,2,,
POINT DELAY,0,s,
,,,
BATT,4.113,V,
No.,FREQUENCY[Hz],RS[ohm],X[ohm]
1,5.00000E+03,2.14800E-02,8.22000E-03
2,3.40650E+03,2.11700E-02,4.96000E-03
3,2.32080E+03,2.11500E-02,2.48000E-03
4,1.58110E+03,2.15300E-02,5.10000E-04
5,1.07720E+03,2.21000E-02,-1.00000E-03
6,7.33900E+02,2.29100E-02,-2.23000E-03
7,5.00000E+02,2.38300E-02,-3.25000E-03
8,3.40650E+02,2.49300E-02,-4.24000E-03
9,2.32080E+02,2.62300E-02,-5.11000E-03
10,1.58110E+02,2.77900E-02,-5.76000E-03
11,1.07720E+02,2.92000E-02,-6.26000E-03
12,7.33900E+01,3.09100E-02,-6.62000E-03
13,5.00000E+01,3.28300E-02,-6.88000E-03
14,3.40650E+01,3.43000E-02,-7.15000E-03
15,2.32080E+01,3.62300E-02,-7.33000E-03
16,1.58110E+01,3.73300E-02,-7.85000E-03
17,1.07720E+01,3.86400E-02,-8.27000E-03
18,7.33900E+00,4.02200E-02,-9.47000E-03
19,5.00000E+00,4.19400E-02,-1.09700E-02
20,3.40600E+00,4.45000E-02,-1.31900E-02
21,2.32100E+00,4.75300E-02,-1.59700E-02
22,1.58100E+00,5.23200E-02,-1.93000E-02
23,1.07700E+00,5.87300E-02,-2.09000E-02
24,7.34000E-01,6.62000E-02,-2.14500E-02
25,5.00000E-01,7.31000E-02,-1.89300E-02
26,3.41000E-01,7.80600E-02,-1.70900E-02
27,2.32000E-01,8.22700E-02,-1.41800E-02
28,1.58000E-01,8.46300E-02,-1.14500E-02
29,1.08000E-01,8.59800E-02,-1.02600E-02
30,7.30000E-02,8.81800E-02,-9.65000E-03
31,5.00000E-02,8.92000E-02,-1.00100E-02

File: 210924C_soc100_t15.csv
HIOKI E.E. CORPORATION,IM3590,Ver. 1.07,Serial No. 150331077
,,,
DATE,2021/9/24,,
TIME,15:22:31,,
,,,
SOURCE,FREQ,,
TRIG,SEQ,,
DRAW,REAL,,
TRIG DELAY,0,s,
SEGMENT,OFF,,
CC,5,mA,
BATTERY,ON,,
RANGE,AUTO,,
SPEED,---,,
AVG,2,,
POINT DELAY,0,s,
,,,
BATT,4.1,V,
No.,FREQUENCY[Hz],RS[ohm],X[ohm]
1,5.00000E+03,2.15200E-02,8.36000E-03
2,3.40650E+03,2.11300E-02,5.11000E-03
3,2.32080E+03,2.11700E-02,2.62000E-03
4,1.58110E+03,2.14200E-02,6.80000E-04
5,1.07720E+03,2.19500E-02,-8.40000E-04
6,7.33900E+02,2.27500E-02,-2.03000E-03
7,5.00000E+02,2.36100E-02,-3.08000E-03
8,3.40650E+02,2.47000E-02,-3.97000E-03
9,2.32080E+02,2.60400E-02,-4.60000E-03
10,1.58110E+02,2.73600E-02,-5.51000E-03
11,1.07720E+02,2.88600E-02,-5.71000E-03
12,7.33900E+01,3.04700E-02,-6.17000E-03
13,5.00000E+01,3.21400E-02,-6.75000E-03
14,3.40650E+01,3.34800E-02,-6.66000E-03
15,2.32080E+01,3.51100E-02,-6.98000E-03
16,1.58110E+01,3.65800E-02,-7.46000E-03
17,1.07720E+01,3.80000E-02,-8.01000E-03
18,7.33900E+00,3.92500E-02,-9.24000E-03
19,5.00000E+00,4.10500E-02,-1.08100E-02
20,3.40600E+00,4.29800E-02,-1.34400E-02
21,2.32100E+00,4.62000E-02,-1.70500E-02
22,1.58100E+00,5.06900E-02,-2.00400E-02
23,1.07700E+00,5.74700E-02,-2.31300E-02
24,7.34000E-01,6.57000E-02,-2.44500E-02
25,5.00000E-01,7.38400E-02,-2.33400E-02
26,3.41000E-01,8.11000E-02,-2.06600E-02
27,2.32000E-01,8.63300E-02,-1.71700E-02
28,1.58000E-01,8.97100E-02,-1.32200E-02
29,1.08000E-01,9.20900E-02,-1.11800E-02
30,7.30000E-02,9.35700E-02,-1.15200E-02
31,5.00000E-02,9.53100E-02,-9.36000E-03

File: 211117D_soc100_t15.csv
HIOKI E.E. CORPORATION,IM3590,Ver. 1.07,Serial No. 150331077
,,,
DATE,2021/11/17,,
TIME,13:36:59,,
,,,
SOURCE,FREQ,,
TRIG,SEQ,,
DRAW,REAL,,
TRIG DELAY,0,s,
SEGMENT,OFF,,
CC,5,mA,
BATTERY,ON,,
RANGE,AUTO,,
SPEED,---,,
AVG,2,,
POINT DELAY,0,s,
,,,
BATT,4.1,V,
No.,FREQUENCY[Hz],RS[ohm],X[ohm]
1,5000 ,0.02170 ,0.00592
2,3406.5 ,0.02133 ,0.00346
3,2320.8 ,0.02130 ,0.00150
4,1581.1 ,0.02160 ,-0.00003
5,1077.2 ,0.02211 ,-0.00129
6,733.9 ,0.02288 ,-0.00238
7,500 ,0.02373 ,-0.00331
8,340.65 ,0.02480 ,-0.00406
9,232.08 ,0.02587 ,-0.00475
10,158.11 ,0.02718 ,-0.00527
11,107.72 ,0.02872 ,-0.00582
12,73.39000 ,0.03034 ,-0.00635
13,50.00000 ,0.03227 ,-0.00626
14,34.06500 ,0.03333 ,-0.00677
15,23.20800 ,0.03495 ,-0.00699
16,15.81100 ,0.03605 ,-0.00744
17,10.77200 ,0.03770 ,-0.00820
18,7.33900 ,0.03918 ,-0.00895
19,5.00000 ,0.04111 ,-0.01070
20,3.40600 ,0.04310 ,-0.01352
21,2.32100 ,0.04600 ,-0.01688
22,1.58100 ,0.05069 ,-0.02113
23,1.07700 ,0.05745 ,-0.02527
24,0.73400 ,0.06635 ,-0.02811
25,0.50000 ,0.07580 ,-0.02794
26,0.34100 ,0.08464 ,-0.02597
27,0.23200 ,0.09118 ,-0.02149
28,0.15800 ,0.09534 ,-0.01775
29,0.10800 ,0.09768 ,-0.01444
30,0.07300 ,0.09964 ,-0.01232
31,0.05000 ,0.10176 ,-0.01134