Folder: naibun/data/温度35℃

File: 210914A_soc100_t35.csv
HIOKI E.E. CORPORATION,IM3590,Ver. 1.07,Serial No. 150331077,,
,,,,,
DATE,2021/9/14,,,,
TIME,16:05:38,,,,
,,,,,
SOURCE,FREQ,,,,
TRIG,SEQ,,,,
DRAW,REAL,,,,
TRIG DELAY,0,s,,,
SEGMENT,OFF,,,,
CC,5,mA,,,
BATTERY,ON,,,,
RANGE,AUTO,,,,
SPEED,---,,,,
AVG,2,,,,
POINT DELAY,0,s,,,
,,,,,
BATT,4.112,V,,,
No.,FREQUENCY[Hz],RS[ohm],X[ohm],”½“]Rs,X
1,5000 ,0.02110 ,0.00953 ,2.11E-02,-9.53E-03
2,3410 ,0.02070 ,0.00624 ,2.07E-02,-6.24E-03
3,2320 ,0.02050 ,0.00376 ,2.05E-02,-3.76E-03
4,1580 ,0.02070 ,0.00200 ,2.07E-02,-2.00E-03
5,1080 ,0.02090 ,0.00069 ,2.09E-02,-6.90E-04
6,734 ,0.02140 ,-0.00031 ,2.14E-02,3.10E-04
7,500 ,0.02180 ,-0.00097 ,2.18E-02,9.70E-04
8,341 ,0.02240 ,-0.00147 ,2.24E-02,1.47E-03
9,232 ,0.02270 ,-0.00194 ,2.27E-02,1.94E-03
10,158 ,0.02350 ,-0.00199 ,2.35E-02,1.99E-03
11,108 ,0.02420 ,-0.00225 ,2.42E-02,2.25E-03
12,73.40000 ,0.02520 ,-0.00261 ,2.52E-02,2.61E-03
13,50.00000 ,0.02560 ,-0.00271 ,2.56E-02,2.71E-03
14,34.10000 ,0.02620 ,-0.00273 ,2.62E-02,2.73E-03
15,23.20000 ,0.02690 ,-0.00295 ,2.69E-02,2.95E-03
16,15.80000 ,0.02720 ,-0.00335 ,2.72E-02,3.35E-03
17,10.80000 ,0.02810 ,-0.00369 ,2.81E-02,3.69E-03
18,7.34000 ,0.02910 ,-0.00419 ,2.91E-02,4.19E-03
19,5.00000 ,0.03050 ,-0.00428 ,3.05E-02,4.28E-03
20,3.41000 ,0.03190 ,-0.00418 ,3.19E-02,4.18E-03
21,2.32000 ,0.03310 ,-0.00425 ,3.31E-02,4.25E-03
22,1.58000 ,0.03400 ,-0.00293 ,3.40E-02,2.93E-03
23,1.08000 ,0.03460 ,-0.00267 ,3.46E-02,2.67E-03
24,0.73400 ,0.03500 ,-0.00242 ,3.50E-02,2.42E-03
25,0.50000 ,0.03540 ,-0.00195 ,3.54E-02,1.95E-03
26,0.34100 ,0.03580 ,-0.00220 ,3.58E-02,2.20E-03
27,0.23200 ,0.03610 ,-0.00164 ,3.61E-02,1.64E-03
28,0.15800 ,0.03640 ,-0.00227 ,3.64E-02,2.27E-03
29,0.10800 ,0.03640 ,-0.00215 ,3.64E-02,2.15E-03
30,0.07300 ,0.03700 ,-0.00169 ,3.70E-02,1.69E-03
31,0.05000 ,0.03810 ,-0.00314 ,3.81E-02,3.14E-03

File: 210917B_soc100_t35.csv
HIOKI E.E. CORPORATION,IM3590,Ver. 1.07,Serial No. 150331077,,
,,,,,
DATE,2021/9/17,,,,
TIME,15:20:49,,,,
,,,,,
SOURCE,FREQ,,,,
TRIG,SEQ,,,,
DRAW,REAL,,,,
TRIG DELAY,0,s,,,
SEGMENT,OFF,,,,
CC,5,mA,,,
BATTERY,ON,,,,
RANGE,AUTO,,,,
SPEED,---,,,,
AVG,2,,,,
POINT DELAY,0,s,,,
,,,,,
BATT,4.085,V,,,
No.,FREQUENCY[Hz],RS[ohm],X[ohm],,
1,5000 ,0.02080 ,0.00950 ,2.08E-02,-9.50E-03
2,3410 ,0.02030 ,0.00614 ,2.03E-02,-6.14E-03
3,2320 ,0.02020 ,0.00367 ,2.02E-02,-3.67E-03
4,1580 ,0.02040 ,0.00178 ,2.04E-02,-1.78E-03
5,1080 ,0.02070 ,0.00042 ,2.07E-02,-4.20E-04
6,734 ,0.02120 ,-0.00060 ,2.12E-02,6.00E-04
7,500 ,0.02180 ,-0.00126 ,2.18E-02,1.26E-03
8,341 ,0.02240 ,-0.00187 ,2.24E-02,1.87E-03
9,232 ,0.02310 ,-0.00233 ,2.31E-02,2.33E-03
10,158 ,0.02390 ,-0.00284 ,2.39E-02,2.84E-03
11,108 ,0.02450 ,-0.00259 ,2.45E-02,2.59E-03
12,73.40000 ,0.02540 ,-0.00258 ,2.54E-02,2.58E-03
13,50.00000 ,0.02630 ,-0.00295 ,2.63E-02,2.95E-03
14,34.10000 ,0.02700 ,-0.00310 ,2.70E-02,3.10E-03
15,23.20000 ,0.02760 ,-0.00318 ,2.76E-02,3.18E-03
16,15.80000 ,0.02820 ,-0.00298 ,2.82E-02,2.98E-03
17,10.80000 ,0.02900 ,-0.00328 ,2.90E-02,3.28E-03
18,7.34000 ,0.02960 ,-0.00286 ,2.96E-02,2.86E-03
19,5.00000 ,0.03040 ,-0.00311 ,3.04E-02,3.11E-03
20,3.41000 ,0.03150 ,-0.00253 ,3.15E-02,2.53E-03
21,2.32000 ,0.03190 ,-0.00219 ,3.19E-02,2.19E-03
22,1.58000 ,0.03230 ,-0.00186 ,3.23E-02,1.86E-03
23,1.08000 ,0.03300 ,-0.00153 ,3.30E-02,1.53E-03
24,0.73400 ,0.03290 ,-0.00130 ,3.29E-02,1.30E-03
25,0.50000 ,0.03350 ,-0.00108 ,3.35E-02,1.08E-03
26,0.34100 ,0.03380 ,-0.00143 ,3.38E-02,1.43E-03
27,0.23200 ,0.03480 ,-0.00107 ,3.48E-02,1.07E-03
28,0.15800 ,0.03500 ,-0.00169 ,3.50E-02,1.69E-03
29,0.10800 ,0.03560 ,-0.00172 ,3.56E-02,1.72E-03
30,0.07300 ,0.03590 ,-0.00173 ,3.59E-02,1.73E-03
31,0.05000 ,0.03590 ,-0.00343 ,3.59E-02,3.43E-03

File: 210922C_soc100_t35.csv
HIOKI E.E. CORPORATION,IM3590,Ver. 1.07,Serial No. 150331077
,,,
DATE,2021/9/22,,
TIME,15:26:38,,
,,,
SOURCE,FREQ,,
TRIG,SEQ,,
DRAW,REAL,,
TRIG DELAY,0,s,
SEGMENT,OFF,,
CC,5,mA,
BATTERY,ON,,
RANGE,AUTO,,
SPEED,---,,
AVG,2,,
POINT DELAY,0,s,
,,,
BATT,4.108,V,
No.,FREQUENCY[Hz],RS[ohm],X[ohm]
1,5000 ,0.02092 ,0.00936
2,3406.5 ,0.02041 ,0.00612
3,2320.8 ,0.02032 ,0.00372
4,1581.1 ,0.02037 ,0.00195
5,1077.2 ,0.02068 ,0.00062
6,733.9 ,0.02109 ,-0.00031
7,500 ,0.02158 ,-0.00105
8,340.65 ,0.02207 ,-0.00151
9,232.08 ,0.02271 ,-0.00181
10,158.11 ,0.02317 ,-0.00230
11,107.72 ,0.02395 ,-0.00246
12,73.39000 ,0.02474 ,-0.00257
13,50.00000 ,0.02538 ,-0.00291
14,34.06500 ,0.02588 ,-0.00314
15,23.20800 ,0.02663 ,-0.00309
16,15.81100 ,0.02728 ,-0.00341
17,10.77200 ,0.02791 ,-0.00404
18,7.33900 ,0.02901 ,-0.00466
19,5.00000 ,0.03023 ,-0.00494
20,3.40600 ,0.03199 ,-0.00519
21,2.32100 ,0.03351 ,-0.00497
22,1.58100 ,0.03491 ,-0.00400
23,1.07700 ,0.03583 ,-0.00378
24,0.73400 ,0.03666 ,-0.00280
25,0.50000 ,0.03692 ,-0.00279
26,0.34100 ,0.03732 ,-0.00185
27,0.23200 ,0.03690 ,-0.00270
28,0.15800 ,0.03755 ,-0.00286
29,0.10800 ,0.03860 ,-0.00299
30,0.07300 ,0.03869 ,-0.00403
31,0.05000 ,0.03980 ,-0.00441

File: 211019D_soc100_t35.csv
HIOKI E.E. CORPORATION,IM3590,Ver. 1.07,Serial No. 150331077
,,,
DATE,2021/10/19,,
TIME,16:52:00,,
,,,
SOURCE,FREQ,,
TRIG,SEQ,,
DRAW,REAL,,
TRIG DELAY,0,s,
SEGMENT,OFF,,
CC,5,mA,
BATTERY,ON,,
RANGE,AUTO,,
SPEED,---,,
AVG,2,,
POINT DELAY,0,s,
,,,
BATT,4.08,V,
No.,FREQUENCY[Hz],RS[ohm],X[ohm]
1,5000 ,0.02075 ,0.00948
2,3406.5 ,0.02030 ,0.00622
3,2320.8 ,0.02018 ,0.00380
4,1581.1 ,0.02032 ,0.00200
5,1077.2 ,0.02058 ,0.00070
6,733.9 ,0.02104 ,-0.00029
7,500 ,0.02147 ,-0.00100
8,340.65 ,0.02202 ,-0.00147
9,232.08 ,0.02248 ,-0.00190
10,158.11 ,0.02319 ,-0.00221
11,107.72 ,0.02376 ,-0.00235
12,73.39000 ,0.02429 ,-0.00270
13,50.00000 ,0.02523 ,-0.00268
14,34.06500 ,0.02585 ,-0.00262
15,23.20800 ,0.02644 ,-0.00318
16,15.81100 ,0.02709 ,-0.00330
17,10.77200 ,0.02793 ,-0.00355
18,7.33900 ,0.02898 ,-0.00394
19,5.00000 ,0.02984 ,-0.00372
20,3.40600 ,0.03086 ,-0.00354
21,2.32100 ,0.03196 ,-0.00327
22,1.58100 ,0.03285 ,-0.00291
23,1.07700 ,0.03299 ,-0.00232
24,0.73400 ,0.03350 ,-0.00197
25,0.50000 ,0.03347 ,-0.00180
26,0.34100 ,0.03367 ,-0.00183
27,0.23200 ,0.03388 ,-0.00189
28,0.15800 ,0.03452 ,-0.00229
29,0.10800 ,0.03487 ,-0.00147
30,0.07300 ,0.03527 ,-0.00230
31,0.05000 ,0.03615 ,-0.00348