Folder: naibun/data/温度5℃

File: 210922B_soc100_t5.csv
HIOKI E.E. CORPORATION,IM3590,Ver. 1.07,Serial No. 150331077
,,,
DATE,2021/9/22,,
TIME,13:29:31,,
,,,
SOURCE,FREQ,,
TRIG,SEQ,,
DRAW,REAL,,
TRIG DELAY,0,s,
SEGMENT,OFF,,
CC,5,mA,
BATTERY,ON,,
RANGE,AUTO,,
SPEED,---,,
AVG,2,,
POINT DELAY,0,s,
,,,
BATT,4.106,V,
No.,FREQUENCY[Hz],RS[ohm],X[ohm]
1,5000 ,0.02194 ,0.00761
2,3406.5 ,0.02171 ,0.00428
3,2320.8 ,0.02182 ,0.00170
4,1581.1 ,0.02237 ,-0.00046
5,1077.2 ,0.02311 ,-0.00224
6,733.9 ,0.02411 ,-0.00375
7,500 ,0.02537 ,-0.00514
8,340.65 ,0.02698 ,-0.00652
9,232.08 ,0.02887 ,-0.00773
10,158.11 ,0.03073 ,-0.00923
11,107.72 ,0.03287 ,-0.01011
12,73.39000 ,0.03602 ,-0.01125
13,50.00000 ,0.03886 ,-0.01258
14,34.06500 ,0.04197 ,-0.01400
15,23.20800 ,0.04557 ,-0.01523
16,15.81100 ,0.04918 ,-0.01610
17,10.77200 ,0.05284 ,-0.01700
18,7.33900 ,0.05677 ,-0.01873
19,5.00000 ,0.05997 ,-0.01982
20,3.40600 ,0.06385 ,-0.02301
21,2.32100 ,0.06806 ,-0.02702
22,1.58100 ,0.07307 ,-0.03253
23,1.07700 ,0.08066 ,-0.03969
24,0.73400 ,0.09128 ,-0.04929
25,0.50000 ,0.10724 ,-0.05770
26,0.34100 ,0.12744 ,-0.06326
27,0.23200 ,0.14989 ,-0.06273
28,0.15800 ,0.16952 ,-0.05713
29,0.10800 ,0.18457 ,-0.04772
30,0.07300 ,0.19439 ,-0.03866
31,0.05000 ,0.20025 ,-0.03245

File: 210924C_soc100_t5.csv
HIOKI E.E. CORPORATION,IM3590,Ver. 1.07,Serial No. 150331077
,,,
DATE,2021/9/24,,
TIME,16:38:16,,
,,,
SOURCE,FREQ,,
TRIG,SEQ,,
DRAW,REAL,,
TRIG DELAY,0,s,
SEGMENT,OFF,,
CC,5,mA,
BATTERY,ON,,
RANGE,AUTO,,
SPEED,---,,
AVG,2,,
POINT DELAY,0,s,
,,,
BATT,4.099,V,
No.,FREQUENCY[Hz],RS[ohm],X[ohm]
1,5000 ,0.02218 ,0.00778
2,3406.5 ,0.02185 ,0.00448
3,2320.8 ,0.02206 ,0.00194
4,1581.1 ,0.02239 ,-0.00018
5,1077.2 ,0.02309 ,-0.00190
6,733.9 ,0.02404 ,-0.00335
7,500 ,0.02520 ,-0.00470
8,340.65 ,0.02664 ,-0.00586
9,232.08 ,0.02824 ,-0.00686
10,158.11 ,0.03041 ,-0.00857
11,107.72 ,0.03218 ,-0.00923
12,73.39000 ,0.03502 ,-0.01034
13,50.00000 ,0.03750 ,-0.01134
14,34.06500 ,0.04077 ,-0.01216
15,23.20800 ,0.04356 ,-0.01296
16,15.81100 ,0.04669 ,-0.01391
17,10.77200 ,0.04966 ,-0.01455
18,7.33900 ,0.05251 ,-0.01578
19,5.00000 ,0.05619 ,-0.01768
20,3.40600 ,0.05913 ,-0.02042
21,2.32100 ,0.06323 ,-0.02468
22,1.58100 ,0.06863 ,-0.03038
23,1.07700 ,0.07499 ,-0.03845
24,0.73400 ,0.08525 ,-0.04843
25,0.50000 ,0.10094 ,-0.05758
26,0.34100 ,0.12071 ,-0.06465
27,0.23200 ,0.14316 ,-0.06552
28,0.15800 ,0.16404 ,-0.05954
29,0.10800 ,0.17931 ,-0.05029
30,0.07300 ,0.18939 ,-0.04086
31,0.05000 ,0.19670 ,-0.03451

File: 211117D_soc100_t5.csv
HIOKI E.E. CORPORATION,IM3590,Ver. 1.07,Serial No. 150331077
,,,
DATE,2021/11/17,,
TIME,15:25:27,,
,,,
SOURCE,FREQ,,
TRIG,SEQ,,
DRAW,REAL,,
TRIG DELAY,0,s,
SEGMENT,OFF,,
CC,5,mA,
BATTERY,ON,,
RANGE,AUTO,,
SPEED,---,,
AVG,2,,
POINT DELAY,0,s,
,,,
BATT,4.099,V,
No.,FREQUENCY[Hz],RS[ohm],X[ohm]
1,5000 ,0.02256 ,0.00558
2,3406.5 ,0.02226 ,0.00306
3,2320.8 ,0.02241 ,0.00098
4,1581.1 ,0.02273 ,-0.00071
5,1077.2 ,0.02341 ,-0.00216
6,733.9 ,0.02430 ,-0.00347
7,500 ,0.02542 ,-0.00457
8,340.65 ,0.02676 ,-0.00573
9,232.08 ,0.02851 ,-0.00678
10,158.11 ,0.03028 ,-0.00752
11,107.72 ,0.03236 ,-0.00854
12,73.39000 ,0.03465 ,-0.00982
13,50.00000 ,0.03699 ,-0.01077
14,34.06500 ,0.03955 ,-0.01119
15,23.20800 ,0.04238 ,-0.01228
16,15.81100 ,0.04533 ,-0.01287
17,10.77200 ,0.04822 ,-0.01393
18,7.33900 ,0.05106 ,-0.01543
19,5.00000 ,0.05340 ,-0.01722
20,3.40600 ,0.05655 ,-0.02014
21,2.32100 ,0.05963 ,-0.02438
22,1.58100 ,0.06380 ,-0.03058
23,1.07700 ,0.07001 ,-0.03854
24,0.73400 ,0.07997 ,-0.04856
25,0.50000 ,0.09428 ,-0.05845
26,0.34100 ,0.11441 ,-0.06658
27,0.23200 ,0.13737 ,-0.06768
28,0.15800 ,0.16027 ,-0.06282
29,0.10800 ,0.17843 ,-0.05387
30,0.07300 ,0.19057 ,-0.04392
31,0.05000 ,0.19844 ,-0.03651

File: 220120A_soc100_t5.csv
HIOKI E.E. CORPORATION,IM3590,Ver. 1.07,Serial No. 150331077
,,,
DATE,2022/1/20,,
TIME,16:54:14,,
,,,
SOURCE,FREQ,,
TRIG,SEQ,,
DRAW,REAL,,
TRIG DELAY,0,s,
SEGMENT,OFF,,
CC,5,mA,
BATTERY,ON,,
RANGE,AUTO,,
SPEED,---,,
AVG,2,,
POINT DELAY,0,s,
,,,
BATT,4.099,V,
No.,FREQUENCY[Hz],RS[ohm],X[ohm]
1,5000 ,0.02337 ,0.01208
2,3406.5 ,0.02291 ,0.00754
3,2320.8 ,0.02291 ,0.00416
4,1581.1 ,0.02330 ,0.00145
5,1077.2 ,0.02391 ,-0.00061
6,733.9 ,0.02483 ,-0.00229
7,500 ,0.02586 ,-0.00374
8,340.65 ,0.02725 ,-0.00500
9,232.08 ,0.02856 ,-0.00620
10,158.11 ,0.03027 ,-0.00712
11,107.72 ,0.03214 ,-0.00779
12,73.39000 ,0.03435 ,-0.00869
13,50.00000 ,0.03684 ,-0.00957
14,34.06500 ,0.03932 ,-0.00995
15,23.20800 ,0.04168 ,-0.01063
16,15.81100 ,0.04393 ,-0.01140
17,10.77200 ,0.04666 ,-0.01219
18,7.33900 ,0.04894 ,-0.01339
19,5.00000 ,0.05139 ,-0.01505
20,3.40600 ,0.05402 ,-0.01788
21,2.32100 ,0.05774 ,-0.02169
22,1.58100 ,0.06138 ,-0.02780
23,1.07700 ,0.06756 ,-0.03571
24,0.73400 ,0.07675 ,-0.04571
25,0.50000 ,0.09099 ,-0.05543
26,0.34100 ,0.10948 ,-0.06248
27,0.23200 ,0.13139 ,-0.06355
28,0.15800 ,0.15151 ,-0.05912
29,0.10800 ,0.16806 ,-0.05025
30,0.07300 ,0.17951 ,-0.04133
31,0.05000 ,0.18845 ,-0.03425